LabVIEW Measurement	
Writer_Version	2
Reader_Version	2
Separator	Tab
Decimal_Separator	.
Multi_Headings	No
X_Columns	One
Time_Pref	Absolute
Operator	Power Factor
Date	2022/03/02
Time	15:19:09.8564634323120117187
***End_of_Header***	
	
Notes	X values guaranteed valid only for Voltage (V)			
Channels	3			
Samples	2	2	2	
Date	2022/03/02	2022/03/02	2022/03/02	
Time	15:19:09.8564634323120117187	15:19:16.9082889556884765625	15:19:16.9082889556884765625	
X_Dimension	Time	Time	Time	
X0	0.0000000000000000E+0	0.0000000000000000E+0	0.0000000000000000E+0	
Delta_X	1.000000	1.000000	1.000000	
***End_of_Header***				
X_Value	Voltage (V)	Untitled	Untitled 1	Comment
0.000000	0.000113	-2.050309E-13	0.308752
1.000000	0.000107	-2.801630E-13	0.308296
8.110469	0.000101	-2.650197E-13	0.308008
9.110469	9.531128E-5	-2.626897E-13	0.307793
16.225236	8.871557E-5	-2.883155E-13	0.307528
17.225236	8.183835E-5	-2.661833E-13	0.307352
24.341717	7.254871E-5	-2.772491E-13	0.307097
25.341717	6.029814E-5	-2.545339E-13	0.306841
32.459935	4.588598E-5	-2.463798E-13	0.306896
33.459935	3.033863E-5	-2.399726E-13	0.306615
40.577023	1.376134E-5	-2.469617E-13	0.306374
41.577023	-3.434395E-6	-2.813237E-13	0.306176
48.690485	-2.070698E-5	-2.760819E-13	0.305999
49.690485	-3.819237E-5	-3.092790E-13	0.305847
56.809841	-5.521663E-5	-2.836523E-13	0.305754
57.809841	-7.214627E-5	-2.871465E-13	0.305711
64.928821	-8.854971E-5	-2.824867E-13	0.305685
65.928821	-0.000104	-2.952994E-13	0.305605
73.044558	-0.000120	-2.935516E-13	0.305517
74.044558	-0.000135	-3.104411E-13	0.305411
81.156828	-0.000150	-2.819029E-13	0.305257
82.156828	-0.000165	-3.180121E-13	0.305081
89.277413	-0.000180	-2.417148E-13	0.304919
90.277413	-0.000196	-2.737471E-13	0.304838
97.392564	-0.000211	-2.690877E-13	0.304889
98.392564	-0.000227	-2.644282E-13	0.305022
105.744545	-0.000242	-2.993730E-13	0.305047
106.744545	-0.000257	-2.865588E-13	0.304951
114.325164	-0.000272	-3.075260E-13	0.304783
115.325164	-0.000287	-3.116025E-13	0.304991
122.909001	-0.000301	-3.459652E-13	0.305310
123.909001	-0.000314	-3.220853E-13	0.305462
131.490778	-0.000327	-3.564478E-13	0.305266
132.490778	-0.000340	-3.593595E-13	0.304886
140.073792	-0.000352	-3.401388E-13	0.304652
141.073792	-0.000364	-3.407211E-13	0.304361
148.656852	-0.000377	-3.372264E-13	0.304172
149.656852	-0.000390	-3.133464E-13	0.304367
157.239913	-0.000403	-3.407202E-13	0.304367
158.239913	-0.000417	-2.976207E-13	0.304226
165.820932	-0.000431	-3.418839E-13	0.304221
166.820932	-0.000444	-3.110156E-13	0.304681
174.403478	-0.000457	-3.331473E-13	0.305193
175.403478	-0.000469	-3.098505E-13	0.305492
182.987537	-0.000482	-3.180036E-13	0.305872
183.987537	-0.000493	-3.430471E-13	0.306219
191.573065	-0.000505	-3.581888E-13	0.305662
192.573065	-0.000516	-3.570242E-13	0.305285
200.156164	-0.000526	-3.686725E-13	0.305155
201.156164	-0.000537	-3.884737E-13	0.304974
208.738399	-0.000549	-4.397263E-13	0.305074
209.738399	-0.000561	-4.082759E-13	0.305023
217.324955	-0.000575	-3.785719E-13	0.305053
218.324955	-0.000588	-3.890553E-13	0.305176
225.909212	-0.000601	-3.675055E-13	0.305474
226.909212	-0.000614	-3.675047E-13	0.305558
234.489336	-0.000627	-3.238229E-13	0.305762
235.489336	-0.000639	-3.424601E-13	0.305310
243.074961	-0.000652	-3.814819E-13	0.305243
244.074961	-0.000663	-3.873061E-13	0.305460
251.657012	-0.000675	-3.995359E-13	0.304507
252.657012	-0.000684	-3.651726E-13	0.303816
260.237850	-0.000688	-3.907985E-13	0.303733
261.237850	-0.000682	-3.989525E-13	0.303807
268.819263	-0.000668	-4.536984E-13	0.303615
269.819263	-0.000647	-4.158418E-13	0.303180
277.401388	-0.000621	-3.960391E-13	0.302960
278.401388	-0.000592	-4.193354E-13	0.302892
285.984421	-0.000561	-3.727418E-13	0.302967
286.984421	-0.000529	-3.628403E-13	0.303099
294.564757	-0.000497	-3.843894E-13	0.303247
295.564757	-0.000465	-3.127523E-13	0.303394
303.143328	-0.000434	-3.890481E-13	0.303546
304.143328	-0.000404	-3.966190E-13	0.303699
311.725695	-0.000374	-3.674973E-13	0.303855
312.725695	-0.000346	-3.884646E-13	0.304011
320.309139	-0.000319	-3.954534E-13	0.304156
321.309139	-0.000293	-3.779808E-13	0.304294
328.891963	-0.000268	-4.006945E-13	0.304434
329.891963	-0.000245	-3.937046E-13	0.304561
337.244005	-0.000223	-4.228259E-13	0.304665
338.244005	-0.000203	-3.931222E-13	0.304773
345.364020	-0.000184	-4.199127E-13	0.304877
346.364020	-0.000167	-4.641763E-13	0.304974
353.483397	-0.000150	-4.595164E-13	0.305059
354.483397	-0.000134	-4.344724E-13	0.305139
361.597468	-0.000120	-3.826374E-13	0.305216
362.597468	-0.000106	-3.948677E-13	0.305287
369.712783	-9.265112E-5	-4.135044E-13	0.305352
370.712783	-8.045862E-5	-4.251524E-13	0.305409
377.831733	-6.911865E-5	-4.548551E-13	0.305465
378.831733	-5.833687E-5	-4.618441E-13	0.305445
385.950578	-4.873398E-5	-4.245694E-13	0.305496
386.950578	-3.926705E-5	-4.816455E-13	0.305538
